File: Tutorials/data/ex2.mpt
EC-Lab ASCII FILE
Nb header lines : 61

Potentio Electrochemical Impedance Spectroscopy

Run on channel : 1 (SN 12040)
User : kknu
CE vs. WE compliance from -10 V to 10 V
Electrode connection : standard
Ewe ctrl range : min = -1.50 V, max = 0.50 V
Safety Limits :
	Do not start on E overload
Acquisition started on : xx/xx/xxxx xx:xx:xx
Technique started on : xx/xx/xxxx xx:xx:xx
Saved on :
	File : xxx
	Directory : xxx\
	Host : xxx.xxx.xxx.xx
Device : VSP (SN xxxx)
Address : xxx.xxx.xx.xxx
EC-Lab for windows v11.16 (software)
Internet server v11.16 (firmware)
Command interpretor v11.16 (firmware)
Electrode material :
Initial state :
Electrolyte :
Comments :
Electrode surface area : 0.001 cm²
Characteristic mass : 0.001 g
Equivalent Weight : 0.000 g/eq.
Density : 0.000 g/cm3
Cycle Definition : Charge/Discharge alternance
Mode                Single sine
E (V)               -1.1000
vs.                 Ref
tE (h:m:s)          0:01:0.0000
record              0
dI                  0.000
unit dI             mA
dt (s)              0.000
fi                  200.000
unit fi             kHz
ff                  10.000
unit ff             mHz
Nd                  8
Points              per decade
spacing             Logarithmic
Va (mV)             10.0
pw                  0.50
Na                  3
corr                0
E range min (V)     -1.500
E range max (V)     0.500
I Range             Auto
Bandwidth           5
nc cycles           0
goto Ns'            0
nr cycles           1
inc. cycle          1

freq/Hz	Re(Z)/Ohm	-Im(Z)/Ohm	|Z|/Ohm	Phase(Z)/deg	time/s	<Ewe>/V	<I>/mA	Cs/µF	Cp/µF	cycle number	I Range	|Ewe|/V	|I|/A	Re(Y)/Ohm-1	Im(Y)/Ohm-1	|Y|/Ohm-1	Phase(Y)/deg
200019	424.924	375.779	567.248	-41.4878	17279.8	-1.10152	-0.00526601	0.00211746	0.000929255	1	12	0.0103125	1.81799e-05	0.00132058	0.00116785	0.0017629	41.4878
149678	396.268	828.154	918.078	-64.4291	17280.4	-1.10059	-0.00410335	0.00128396	0.00104476	1	12	0.0102023	1.11127e-05	0.000470142	0.000982544	0.00108923	64.4291
112012	854.828	1316.62	1569.78	-57.0059	17281.1	-1.10052	-0.00409685	0.00107919	0.000759169	1	12	0.0101994	6.49733e-06	0.000346897	0.000534295	0.000637032	57.0059
83828.1	1515.68	1308.02	2002.05	-40.794	17281.7	-1.10043	-0.0040929	0.0014515	0.000619578	1	12	0.0108341	5.41151e-06	0.000378145	0.000326336	0.000499488	40.794
62734.4	1899.31	997.157	2145.16	-27.6999	17282.2	-1.10048	-0.00409726	0.0025442	0.000549744	1	12	0.0104554	4.87395e-06	0.000412741	0.000216693	0.000466166	27.6999
46953.1	2061.31	746.005	2192.15	-19.8956	17282.8	-1.10048	-0.00408995	0.00454374	0.000526209	1	12	0.0102276	4.66555e-06	0.000428947	0.00015524	0.000456174	19.8956
35136.7	2127.1	540.348	2194.66	-14.2534	17283.4	-1.10043	-0.00409502	0.00838273	0.000508159	1	12	0.0102377	4.66484e-06	0.000441626	0.000112187	0.000455652	14.2534
26298.8	2138.35	394.136	2174.37	-10.4434	17283.9	-1.10046	-0.00409336	0.0153546	0.000504501	1	12	0.0099494	4.57576e-06	0.000452284	8.3364e-05	0.000459903	10.4434
19677.7	2170.52	298.904	2191	-7.84094	17284.3	-1.10048	-0.00410488	0.0270591	0.000503607	1	12	0.0106224	4.84821e-06	0.000452145	6.22654e-05	0.000456413	7.84094
14726.6	2180.87	230.38	2193	-6.03019	17284.9	-1.10043	-0.00408912	0.0469109	0.000517709	1	12	0.0101002	4.60564e-06	0.000453472	4.79034e-05	0.000455995	6.03019
11025.4	2176.6	171.614	2183.36	-4.50815	17285.3	-1.10042	-0.00408643	0.084115	0.000519672	1	12	0.010304	4.71935e-06	0.000456593	3.60001e-05	0.00045801	4.50815
8325.19	2182.95	141.921	2187.56	-3.71976	17285.8	-1.10027	-0.00405305	0.134703	0.00056696	1	12	0.0104419	4.77332e-06	0.000456167	2.9657e-05	0.00045713	3.71976
6195.49	2186.17	123.404	2189.65	-3.23077	17286.5	-1.1004	-0.00410579	0.208169	0.000661184	1	12	0.0105129	4.80116e-06	0.000455968	2.57382e-05	0.000456693	3.23077
4621.48	2192.37	90.2491	2194.22	-2.35726	17287.2	-1.10048	-0.00413573	0.381589	0.000645537	1	12	0.0105643	4.81459e-06	0.000455357	1.87448e-05	0.000455742	2.35726
3456.11	2194.63	79.8567	2196.08	-2.08392	17288	-1.10043	-0.00410618	0.576663	0.000762512	1	12	0.0106236	4.83754e-06	0.000455055	1.65582e-05	0.000455356	2.08392
2585.83	2188.1	78.9278	2189.52	-2.06584	17288.7	-1.10046	-0.00410128	0.779813	0.00101333	1	12	0.0106024	4.84233e-06	0.000456424	1.64638e-05	0.00045672	2.06584
1935.62	2199.15	71.5207	2200.31	-1.86272	17289.5	-1.10043	-0.0041114	1.14966	0.00121469	1	12	0.0106175	4.82547e-06	0.000454241	1.47729e-05	0.000454482	1.86272
1448.61	2200.06	68.7513	2201.14	-1.78989	17290.2	-1.10042	-0.00408083	1.59804	0.00155904	1	12	0.0106354	4.83178e-06	0.000454089	1.41902e-05	0.000454311	1.78989
1083.96	2203.65	95.6397	2205.72	-2.48512	17291	-1.10046	-0.00409804	1.53521	0.00288632	1	12	0.0105937	4.80285e-06	0.00045294	1.96579e-05	0.000453367	2.48512
811.298	2203.44	108.355	2206.1	-2.81529	17291.7	-1.10054	-0.00411395	1.81046	0.00436757	1	12	0.0106268	4.817e-06	0.000452742	2.22638e-05	0.000453289	2.81529
607.527	2215.6	128.64	2219.33	-3.32291	17292.5	-1.10046	-0.00409087	2.03648	0.00684204	1	12	0.0106016	4.77692e-06	0.000449829	2.61175e-05	0.000450587	3.32291
454.564	2211.63	176.69	2218.68	-4.56773	17293.3	-1.10045	-0.00410178	1.98159	0.0125675	1	12	0.0105985	4.77693e-06	0.000449287	3.58941e-05	0.000450719	4.56773
340.109	2243.73	201.953	2252.8	-5.1432	17294	-1.10046	-0.00410106	2.31714	0.0186212	1	12	0.0106312	4.71909e-06	0.000442105	3.97928e-05	0.000443892	5.1432
254.43	2244.57	255.116	2259.03	-6.48435	17294.8	-1.10046	-0.00407909	2.45196	0.0312714	1	12	0.0106053	4.69462e-06	0.000439837	4.99914e-05	0.000442669	6.48435
190.549	2270.27	329.476	2294.05	-8.25748	17295.5	-1.10044	-0.00410801	2.53507	0.0522916	1	12	0.0106582	4.64603e-06	0.000431391	6.26063e-05	0.000435911	8.25748
142.492	2300.03	426.2	2339.18	-10.498	17296.3	-1.10043	-0.00411633	2.62069	0.0869991	1	12	0.0106177	4.53907e-06	0.000420344	7.78906e-05	0.0004275	10.498
106.673	2340.77	559.734	2406.76	-13.4483	17297.3	-1.10053	-0.00422752	2.66554	0.144172	1	13	0.0106772	4.43633e-06	0.000404103	9.66307e-05	0.000415496	13.4483
79.8212	2374.18	685.482	2471.16	-16.1047	17298	-1.10052	-0.00424219	2.90875	0.223819	1	13	0.0106243	4.29932e-06	0.000388788	0.000112252	0.000404668	16.1047
59.7895	2587.93	787.288	2705.03	-16.9206	17298.8	-1.10049	-0.00422782	3.38112	0.286408	1	13	0.0105939	3.91638e-06	0.000353678	0.000107594	0.000369682	16.9206
44.728	2545.3	1124.18	2782.51	-23.8295	17299.5	-1.1004	-0.00422051	3.16523	0.516659	1	13	0.0106725	3.83558e-06	0.000328751	0.000145199	0.000359388	23.8295
33.4276	2680.36	1444.53	3044.83	-28.3216	17300.3	-1.10042	-0.00421879	3.29602	0.741848	1	13	0.0106492	3.49747e-06	0.000289113	0.000155812	0.000328425	28.3216
25.0401	2884.88	1823.14	3412.68	-32.2914	17301.1	-1.10041	-0.00421846	3.4863	0.994979	1	13	0.0106513	3.12108e-06	0.000247706	0.000156541	0.000293025	32.2914
18.735	3164.65	2258.91	3888.15	-35.519	17301.9	-1.10042	-0.00421944	3.76069	1.26935	1	13	0.0106047	2.72744e-06	0.000209334	0.000149422	0.000257192	35.519
14.0176	3615.96	2723.56	4526.91	-36.9873	17302.7	-1.10046	-0.00423531	4.16877	1.50896	1	13	0.010592	2.33978e-06	0.000176449	0.000132903	0.000220901	36.9873
10.5007	4201.99	3235.07	5303.05	-37.5923	17303.4	-1.10045	-0.00422073	4.68511	1.74355	1	13	0.0106001	1.99887e-06	0.000149418	0.000115035	0.000188571	37.5923
7.85965	4927.05	3683.47	6151.73	-36.7818	17304.3	-1.10044	-0.00422745	5.49743	1.97097	1	13	0.0106609	1.73299e-06	0.000130194	9.73335e-05	0.000162556	36.7818
5.88291	5797.68	4018.6	7054.23	-34.7273	17305	-1.10044	-0.00422376	6.73215	2.18476	1	13	0.0106221	1.50577e-06	0.000116508	8.07561e-05	0.000141759	34.7273
4.39893	6714.31	4234.98	7938.33	-32.2412	17305.8	-1.10043	-0.00422681	8.54322	2.43146	1	13	0.010625	1.33844e-06	0.000106547	6.72037e-05	0.000125971	32.2412
3.29363	7658.77	4371.71	8818.65	-29.7182	17306.9	-1.10044	-0.00422401	11.0534	2.71639	1	13	0.0106257	1.20491e-06	9.84816e-05	5.62143e-05	0.000113396	29.7182
2.46607	8449.66	4346.11	9501.87	-27.2192	17308.4	-1.10044	-0.00421947	14.8496	3.10669	1	13	0.0106458	1.12039e-06	9.35883e-05	4.81375e-05	0.000105242	27.2192
1.84257	9308.47	4397.13	10294.8	-25.2851	17310.4	-1.10042	-0.00420952	19.6439	3.5837	1	13	0.0106228	1.03186e-06	8.78304e-05	4.14893e-05	9.71367e-05	25.2851
1.38128	9977.48	4447.34	10923.8	-24.0243	17312.9	-1.10042	-0.00420805	25.9083	4.29432	1	13	0.0106265	9.72782e-07	8.36132e-05	3.72696e-05	9.15434e-05	24.0243
1.0334	10678.2	4599.27	11626.6	-23.3023	17316.4	-1.10043	-0.00420464	33.486	5.24007	1	13	0.0106253	9.13878e-07	7.8994e-05	3.4024e-05	8.60098e-05	23.3023
0.773208	11410.6	4937.76	12433.1	-23.3998	17320.9	-1.10043	-0.004201	41.6863	6.57495	1	13	0.0106284	8.54847e-07	7.38153e-05	3.19425e-05	8.04302e-05	23.3998
0.578532	12107.9	5268.69	13204.5	-23.5161	17327	-1.10043	-0.00419462	52.2144	8.31286	1	13	0.0106294	8.04985e-07	6.9442e-05	3.02174e-05	7.57317e-05	23.5161
0.433065	12888.5	5784.25	14127	-24.1702	17337.5	-1.10043	-0.00420674	63.5359	10.6516	1	14	0.0106341	7.52751e-07	6.4581e-05	2.89834e-05	7.07866e-05	24.1702
0.323901	13683	6464.32	15133.2	-25.2876	17348.4	-1.10042	-0.00419985	76.0125	13.8698	1	14	0.0106278	7.02287e-07	5.9748e-05	2.82269e-05	6.60801e-05	25.2876
0.242323	14675.8	7368.21	16421.6	-26.6597	17362.9	-1.10043	-0.00419413	89.138	17.9456	1	14	0.01063	6.4732e-07	5.44215e-05	2.73232e-05	6.08955e-05	26.6597
0.181534	15764.7	8460.01	17891.3	-28.2199	17382.2	-1.10043	-0.00418841	103.631	23.1714	1	14	0.0106266	5.93954e-07	4.92497e-05	2.64295e-05	5.58932e-05	28.2199
0.135846	17060.5	9862.1	19705.9	-30.0308	17408	-1.10043	-0.00419134	118.797	29.7544	1	14	0.0106232	5.39086e-07	4.39339e-05	2.53967e-05	5.07463e-05	30.0308
0.101725	18714.6	11554.9	21994.3	-31.6923	17442.5	-1.10043	-0.00419924	135.402	37.3711	1	14	0.010626	4.83126e-07	3.86864e-05	2.3886e-05	4.54663e-05	31.6923
0.0761037	20608.6	13618.2	24701.6	-33.4568	17488.6	-1.10043	-0.00419905	153.566	46.6749	1	14	0.0106253	4.30147e-07	3.37752e-05	2.23187e-05	4.04832e-05	33.4568
0.0569665	22988.3	16133.2	28084.6	-35.0613	17550.1	-1.10044	-0.00418055	173.172	57.1461	1	14	0.0106226	3.78235e-07	2.91455e-05	2.04544e-05	3.56067e-05	35.0613
0.0426446	27069.9	19412.8	33311.2	-35.6456	17632.3	-1.10042	-0.00413838	192.251	65.2923	1	14	0.0106236	3.18919e-07	2.43953e-05	1.74947e-05	3.00199e-05	35.6456
0.0319138	31013.8	22117.6	38092.6	-35.4947	17742.1	-1.10043	-0.00408656	225.478	76.0151	1	14	0.0106229	2.78872e-07	2.13734e-05	1.52426e-05	2.62519e-05	35.4947
0.0238768	38715.7	25563.7	46394	-33.4365	17888.9	-1.10043	-0.00403598	260.748	79.1667	1	14	0.0106242	2.28999e-07	1.79872e-05	1.18768e-05	2.15545e-05	33.4365
0.0178412	45350.6	26867.9	52712.1	-30.6446	18085.3	-1.10043	-0.0040263	332.019	86.2603	1	14	0.0106245	2.01558e-07	1.63216e-05	9.66972e-06	1.8971e-05	30.6446
0.0133776	58219.1	28632	64878.8	-26.1878	18347.2	-1.10043	-0.00386714	415.52	80.9262	1	14	0.0106251	1.63768e-07	1.38312e-05	6.80215e-06	1.54134e-05	26.1878
0.0100058	57784.7	25871.3	63311.9	-24.119	18697.3	-1.10043	-0.00371383	614.825	102.664	1	14	0.0106262	1.67839e-07	1.44159e-05	6.45428e-06	1.57948e-05	24.119
200019	406.111	378.412	555.087	-42.9779	18759	-1.10044	-0.00242171	0.00210273	0.000977216	2	12	0.0101107	1.82146e-05	0.00131802	0.00122813	0.00180152	42.9779
149678	402.674	850.574	941.075	-64.6664	18759.7	-1.10061	-0.00355599	0.00125012	0.00102124	2	12	0.0101284	1.07626e-05	0.00045468	0.000960425	0.00106261	64.6664
112012	876.189	1328.98	1591.82	-56.6033	18760.4	-1.10051	-0.00353507	0.00106915	0.000745224	2	12	0.010179	6.39456e-06	0.000345788	0.000524481	0.000628212	56.6033
83828.1	1537.55	1300.14	2013.55	-40.2176	18761	-1.10049	-0.00353501	0.0014603	0.000608826	2	12	0.0107758	5.35161e-06	0.000379229	0.000320673	0.000496634	40.2176
62734.4	1907.96	989.279	2149.19	-27.4067	18761.5	-1.10046	-0.00351075	0.00256446	0.000543358	2	12	0.0103968	4.83757e-06	0.000413069	0.000214176	0.000465293	27.4067
46953.1	2070.57	713.371	2190.01	-19.0103	18762.1	-1.10051	-0.00356817	0.0047516	0.000504172	2	12	0.0102806	4.69432e-06	0.000431715	0.000148738	0.000456619	19.0103
35136.7	2133.81	526.203	2197.74	-13.8529	18762.6	-1.10047	-0.0035335	0.00860807	0.000493471	2	12	0.0101094	4.59991e-06	0.000441779	0.000108944	0.000455014	13.8529
26298.8	2145.86	408.501	2184.4	-10.7783	18763.2	-1.10044	-0.00355806	0.0148146	0.000518099	2	12	0.0101723	4.65678e-06	0.000449716	8.56109e-05	0.000457792	10.7783
19677.7	2157.96	295.9	2178.15	-7.80773	18763.6	-1.10045	-0.00354746	0.0273338	0.000504446	2	12	0.0108089	4.96243e-06	0.000454849	6.23691e-05	0.000459105	7.80773
14726.6	2173.37	219.071	2184.39	-5.75584	18764.2	-1.10047	-0.00355876	0.0493326	0.000496187	2	12	0.010068	4.60908e-06	0.000455487	4.5912e-05	0.000457795	5.75584
11025.4	2168.87	171.615	2175.65	-4.52419	18764.6	-1.10052	-0.00354388	0.0841146	0.000523365	2	12	0.0102609	4.71626e-06	0.000458201	3.62559e-05	0.000459634	4.52419
8325.19	2178.57	136.034	2182.82	-3.573	18765.1	-1.1004	-0.00351945	0.140533	0.000545806	2	12	0.0104332	4.77971e-06	0.000457233	2.85504e-05	0.000458124	3.573
6195.49	2182.75	120.961	2186.1	-3.17191	18765.7	-1.10046	-0.00355897	0.212372	0.000650207	2	12	0.0105275	4.81568e-06	0.000456735	2.53109e-05	0.000457436	3.17191
4621.48	2184.14	87.5797	2185.89	-2.29622	18766.5	-1.10049	-0.00355344	0.39322	0.000631226	2	12	0.0105372	4.82056e-06	0.000457111	1.83293e-05	0.000457479	2.29622
3456.11	2190.27	88.9078	2192.07	-2.32448	18767.2	-1.10041	-0.00355597	0.517957	0.000852044	2	12	0.0105859	4.82915e-06	0.000455813	1.85024e-05	0.000456189	2.32448
2585.83	2196.27	68.6794	2197.34	-1.79111	18768	-1.10049	-0.00355148	0.896178	0.000875491	2	12	0.0105924	4.82054e-06	0.000454873	1.42243e-05	0.000455095	1.79111
1935.62	2187.43	69.6783	2188.54	-1.82448	18768.8	-1.10041	-0.00357821	1.18006	0.00119616	2	12	0.01056	4.82516e-06	0.000456695	1.45475e-05	0.000456926	1.82448
1448.61	2196.11	84.0409	2197.71	-2.19154	18769.5	-1.10045	-0.00355716	1.30731	0.00191169	2	12	0.0106265	4.83526e-06	0.000454686	1.74e-05	0.000455018	2.19154
1083.96	2200.75	82.7095	2202.3	-2.1523	18770.3	-1.10048	-0.0035591	1.77522	0.00250385	2	12	0.0106225	4.82336e-06	0.000453749	1.7053e-05	0.00045407	2.1523
811.298	2207.76	111.203	2210.56	-2.88349	18771	-1.10043	-0.00354349	1.7641	0.00446426	2	12	0.0106622	4.82328e-06	0.000451801	2.27567e-05	0.000452374	2.88349
607.527	2211.97	144.304	2216.67	-3.73256	18771.8	-1.10046	-0.00356392	1.81542	0.0076936	2	12	0.0106242	4.79285e-06	0.00045017	2.9368e-05	0.000451127	3.73256
454.564	2217.25	169.994	2223.76	-4.38422	18772.5	-1.10042	-0.0035721	2.05964	0.012036	2	12	0.0106261	4.77844e-06	0.000448373	3.43762e-05	0.000449689	4.38422
340.109	2239.76	210.781	2249.66	-5.3762	18773.3	-1.10041	-0.00356554	2.22009	0.0194895	2	12	0.0106636	4.74011e-06	0.000442557	4.16485e-05	0.000444513	5.3762
254.43	2243.37	256.444	2257.98	-6.52129	18774	-1.10047	-0.0035368	2.43927	0.0314633	2	12	0.0106431	4.71357e-06	0.000440009	5.02983e-05	0.000442874	6.52129
190.549	2260.72	333.668	2285.21	-8.39588	18774.8	-1.10051	-0.00356277	2.50322	0.0533674	2	12	0.0105993	4.63821e-06	0.000432906	6.38942e-05	0.000437596	8.39588
142.492	2303.45	424.499	2342.24	-10.4418	18775.5	-1.10041	-0.0035794	2.63119	0.086426	2	12	0.0106248	4.53618e-06	0.000419872	7.73776e-05	0.000426942	10.4418
106.673	2323.41	540.509	2385.45	-13.0961	18776.5	-1.10045	-0.00370211	2.76035	0.141719	2	13	0.0106311	4.45663e-06	0.000408304	9.49862e-05	0.000419207	13.0961
79.8212	2378.87	689.487	2476.78	-16.1636	18777.3	-1.10048	-0.00368114	2.89185	0.224107	2	13	0.0106657	4.30628e-06	0.000387791	0.000112396	0.000403751	16.1636
59.7895	2615.37	945.051	2780.88	-19.8671	18778	-1.10041	-0.00367938	2.8167	0.325302	2	13	0.0106865	3.84284e-06	0.000338197	0.000122206	0.000359599	19.8671
44.728	2498.72	1148.22	2749.91	-24.6798	18778.8	-1.10049	-0.0036855	3.09896	0.54029	2	13	0.0106264	3.86426e-06	0.000330431	0.00015184	0.000363648	24.6798
33.4276	2620.24	1465.97	3002.45	-29.2261	18779.6	-1.10047	-0.00368824	3.24781	0.77426	2	13	0.0106336	3.54163e-06	0.000290662	0.000162619	0.000333061	29.2261
25.0401	2797.22	1862.44	3360.53	-33.6564	18780.3	-1.10048	-0.00366937	3.41273	1.04822	2	13	0.0106463	3.16805e-06	0.000247692	0.000164918	0.000297572	33.6564
18.735	3065.58	2379.08	3880.44	-37.8137	18781.1	-1.10048	-0.00368609	3.57073	1.34219	2	13	0.0106384	2.74154e-06	0.000203587	0.000157996	0.000257703	37.8137
14.0176	3466.12	2922.87	4534	-40.1399	18781.9	-1.10046	-0.00369381	3.8845	1.61433	2	13	0.0106091	2.33989e-06	0.000168609	0.000142182	0.000220556	40.1399
10.5007	4022.71	3571.62	5379.47	-41.6008	18782.7	-1.10043	-0.00369613	4.24363	1.87064	2	13	0.0106304	1.97611e-06	0.000139008	0.00012342	0.000185892	41.6008
7.85965	4819.36	4158.58	6365.53	-40.7906	18783.6	-1.10047	-0.00370164	4.86936	2.07822	2	13	0.0106074	1.66638e-06	0.000118938	0.00010263	0.000157096	40.7906
5.88291	5864.75	4670.27	7497.12	-38.5313	18784.3	-1.10044	-0.00369736	5.79277	2.24793	2	13	0.0106512	1.42071e-06	0.000104342	8.30909e-05	0.000133385	38.5313
4.39893	6927.39	5151.27	8632.75	-36.6348	18785.4	-1.10045	-0.0037112	7.02358	2.50086	2	14	0.0106369	1.23216e-06	9.29548e-05	6.9122e-05	0.000115838	36.6348
3.29363	8037.26	5419.05	9693.48	-33.9895	18786.5	-1.10042	-0.00370766	8.91705	2.78682	2	14	0.0106526	1.09894e-06	8.55358e-05	5.76718e-05	0.000103162	33.9895
2.46607	9196.27	5471.69	10701	-30.7522	18788	-1.10045	-0.00371022	11.7949	3.08383	2	14	0.0106363	9.93953e-07	8.03092e-05	4.77832e-05	9.34494e-05	30.7522
1.84257	10231.5	5538.73	11634.5	-28.4284	18789.9	-1.10046	-0.0037042	15.595	3.53435	2	14	0.010619	9.12712e-07	7.55865e-05	4.09179e-05	8.59511e-05	28.4284
1.38128	11216.6	5629.22	12549.9	-26.6504	18792.5	-1.10044	-0.00370819	20.4688	4.11818	2	14	0.0106287	8.46912e-07	7.12163e-05	3.57409e-05	7.96817e-05	26.6504
1.0334	12106.2	5822.66	13433.7	-25.6859	18795.9	-1.10045	-0.00370627	26.4503	4.96918	2	14	0.0106291	7.9123e-07	6.7084e-05	3.22651e-05	7.44399e-05	25.6859
0.773208	12979.4	6073.39	14330.1	-25.0761	18800.5	-1.10045	-0.00370168	33.8916	6.08779	2	14	0.0106208	7.41157e-07	6.3206e-05	2.95758e-05	6.97834e-05	25.0761
0.578532	13893	6498.06	15337.5	-25.0666	18806.6	-1.10046	-0.00369823	42.3359	7.59919	2	14	0.010624	6.92679e-07	5.90589e-05	2.76232e-05	6.51997e-05	25.0666
0.433065	14867.7	7065.35	16461.1	-25.4177	18814.7	-1.10045	-0.00369085	52.0155	9.58255	2	14	0.0106269	6.45575e-07	5.48688e-05	2.60744e-05	6.07492e-05	25.4177
0.323901	15815.4	7798.91	17633.8	-26.2488	18825.6	-1.10044	-0.0036854	63.0048	12.3239	2	14	0.0106179	6.02132e-07	5.08615e-05	2.50808e-05	5.67092e-05	26.2488
0.242323	17045.8	8779.23	19173.8	-27.2502	18840.1	-1.10044	-0.00368035	74.8116	15.6843	2	14	0.0106287	5.54337e-07	4.63662e-05	2.38803e-05	5.21545e-05	27.2502
0.181534	18299.8	9968.65	20838.8	-28.579	18859.4	-1.10044	-0.00367691	87.9479	20.1258	2	14	0.010626	5.09913e-07	4.21405e-05	2.29557e-05	4.79874e-05	28.579
0.135846	19887.8	11476.3	22961.5	-29.9871	18885.2	-1.10044	-0.00366172	102.087	25.502	2	14	0.010626	4.62773e-07	3.77213e-05	2.17671e-05	4.35512e-05	29.9871
0.101725	21559.1	13152.8	25254.5	-31.3866	18919.7	-1.10044	-0.0036517	118.952	32.265	2	14	0.0106237	4.20667e-07	3.38028e-05	2.06225e-05	3.95969e-05	31.3866
0.0761037	23819.1	15429.2	28379.7	-32.9338	18965.8	-1.10043	-0.00363351	135.541	40.0627	2	14	0.0106279	3.74489e-07	2.95739e-05	1.91569e-05	3.52364e-05	32.9338
0.0569665	26091.9	17778.4	31573.1	-34.2695	19027.3	-1.10045	-0.00361463	157.148	49.8264	2	14	0.0106213	3.36403e-07	2.61741e-05	1.78344e-05	3.16726e-05	34.2695
0.0426446	29541.3	21266.9	36400.1	-35.7502	19109.5	-1.10044	-0.00359368	175.49	59.9037	2	14	0.0106254	2.91906e-07	2.22959e-05	1.60509e-05	2.74724e-05	35.7502
0.0319138	33486.2	24287.2	41366.6	-35.953	19219.3	-1.10044	-0.00355112	205.335	70.7815	2	14	0.0106277	2.56915e-07	1.95689e-05	1.41931e-05	2.41741e-05	35.953
0.0238768	40292.2	29436	49899.3	-36.1505	19366.1	-1.10044	-0.00350388	226.446	78.8013	2	14	0.0106249	2.12928e-07	1.6182e-05	1.1822e-05	2.00404e-05	36.1505
0.0178412	46895.8	30637.7	56016.9	-33.1572	19562.4	-1.10044	-0.00345374	291.166	87.0996	2	14	0.0106266	1.89704e-07	1.4945e-05	9.7638e-06	1.78518e-05	33.1572
0.0133776	58070.4	36519.1	68599	-32.1648	19824.4	-1.10044	-0.00337145	325.779	92.3269	2	14	0.0106261	1.54901e-07	1.23401e-05	7.76042e-06	1.45775e-05	32.1648
0.0100058	62483.3	31125.2	69806.5	-26.4796	20174.5	-1.10044	-0.00326775	511.043	101.599	2	14	0.0106246	1.52201e-07	1.28225e-05	6.38735e-06	1.43253e-05	26.4796